Folder: data_processing_of_GO_experiments/Dados - FTIR

Note: README.md
# Graphene Oxide as a component in gel nails.
This is a repository relative to the research about some applications of Graphene Oxide (GO) made by brazillian students of Ilum School of Science.

![Caracterização do Óxido de Grafeno - FTIR](https://user-images.githubusercontent.com/107067724/198566228-62cc56ab-55ce-4d00-a067-454475874803.png)

![Diferença entre gel controle e gel alternativo - FTIR](https://user-images.githubusercontent.com/107067724/198566283-a9d89c1e-fbf8-4f1f-a504-da2623a67c29.png)

![Gel controle e gel modificado com GO - FTIR](https://user-images.githubusercontent.com/107067724/198566319-1eda3d73-73f5-4fc1-b01b-949f54d21b89.png)

![Gel controle e gel modificado com rGO - FTIR](https://user-images.githubusercontent.com/107067724/198566352-b609cfc2-bc30-4189-a53a-3f9037f217de.png)

File: amostra_rGO.txt
x               y
399.452  	86.1466
412.384  	87.3862
425.316  	84.7269
438.248  	85.1893
451.18  	84.6903
464.112  	82.7226
477.044  	82.811
489.976  	83.8794
502.908  	83.6891
515.839  	82.7311
528.771  	82.957
541.703  	83.2209
554.635  	81.7367
567.567  	81.8988
580.499  	81.7234
593.431  	82.1454
606.363  	83.6886
619.295  	85.1509
632.227  	85.6782
645.159  	84.0522
658.09  	82.9106
671.022  	87.2997
683.954  	89.3374
696.886  	88.6781
709.818  	88.4048
722.75  	89.0725
735.682  	88.9467
748.614  	88.5329
761.546  	89.8391
774.478  	86.0391
787.409  	90.4328
800.341  	90.7436
813.273  	81.0424
826.205  	84.6599
839.137  	87.3976
852.069  	89.9874
865.001  	89.8899
877.933  	88.9007
890.865  	89.0702
903.797  	87.304
916.729  	86.045
929.66  	80.1258
942.592  	76.6909
955.524  	78.9321
968.456  	81.4137
981.388  	81.6637
994.32  	80.5119
1007.25  	73.2137
1020.18  	69.0761
1033.12  	73.2825
1046.05  	71.3522
1058.98  	72.6469
1071.91  	74.0342
1084.84  	79.3867
1097.78  	81.6568
1110.71  	74.4681
1123.64  	65.8765
1136.57  	55.1678
1149.5  	49.2873
1162.43  	43.1444
1175.37  	50.0826
1188.3  	61.773
1201.23  	69.8594
1214.16  	70.9451
1227.09  	62.3445
1240.03  	59.2463
1252.96  	64.0442
1265.89  	74.9021
1278.82  	77.2544
1291.75  	70.8023
1304.69  	73.0738
1317.62  	75.6706
1330.55  	83.7727
1343.48  	86.5885
1356.41  	86.2805
1369.35  	84.6138
1382.28  	85.8834
1395.21  	87.0669
1408.14  	87.6475
1421.07  	88.4317
1434  	86.036
1446.94  	80.9455
1459.87  	80.3509
1472.8  	86.6214
1485.73  	92.3486
1498.66  	89.3218
1511.6  	76.0425
1524.53  	81.1399
1537.46  	84.0424
1550.39  	89.2838
1563.32  	93.9212
1576.26  	95.2508
1589.19  	96.3651
1602.12  	95.1627
1615.05  	93.7022
1627.98  	91.1874
1640.92  	88.7083
1653.85  	92.4434
1666.78  	91.5815
1679.71  	85.2379
1692.64  	71.9403
1705.57  	53.5713
1718.51  	46.0029
1731.44  	58.4402
1744.37  	81.9473
1757.3  	94.5034
1770.23  	98.8128
1783.17  	99.9861
1796.1  	100.623
1809.03  	101.339
1821.96  	101.656
1834.89  	101.86
1847.83  	102.032
1860.76  	102.045
1873.69  	102.224
1886.62  	102.298
1899.55  	102.342
1912.49  	102.702
1925.42  	102.805
1938.35  	103.063
1951.28  	103.408
1964.21  	103.83
1977.15  	103.667
1990.08  	103.487
2003.01  	103.44
2015.94  	103.724
2028.87  	104.291
2041.8  	102.61
2054.74  	102.601
2067.67  	103.099
2080.6  	102.922
2093.53  	103.186
2106.46  	103.351
2119.4  	103.482
2132.33  	104.206
2145.26  	104.56
2158.19  	104.685
2171.12  	104.19
2184.06  	103.454
2196.99  	103.647
2209.92  	103.916
2222.85  	103.328
2235.78  	103.074
2248.72  	103.26
2261.65  	103.168
2274.58  	103.214
2287.51  	102.962
2300.44  	102.603
2313.37  	102.432
2326.31  	102.023
2339.24  	102.558
2352.17  	102.38
2365.1  	102.782
2378.03  	102.325
2390.97  	103.258
2403.9  	103.513
2416.83  	103.593
2429.76  	103.639
2442.69  	103.613
2455.63  	103.568
2468.56  	103.575
2481.49  	103.62
2494.42  	103.565
2507.35  	103.68
2520.29  	103.59
2533.22  	103.64
2546.15  	103.619
2559.08  	103.643
2572.01  	103.594
2584.94  	103.443
2597.88  	103.322
2610.81  	103.284
2623.74  	103.292
2636.67  	103.297
2649.6  	103.386
2662.54  	103.463
2675.47  	103.578
2688.4  	103.622
2701.33  	103.582
2714.26  	103.562
2727.2  	103.593
2740.13  	103.503
2753.06  	103.53
2765.99  	103.482
2778.92  	103.438
2791.86  	103.359
2804.79  	103.168
2817.72  	102.845
2830.65  	102.253
2843.58  	99.9583
2856.51  	95.8807
2869.45  	93.4464
2882.38  	94.9819
2895.31  	94.0987
2908.24  	92.1323
2921.17  	88.8017
2934.11  	84.9167
2947.04  	83.0228
2959.97  	86.5122
2972.9  	92.8779
2985.83  	97.676
2998.77  	100.491
3011.7  	102.287
3024.63  	103.036
3037.56  	103.127
3050.49  	103.199
3063.43  	103.211
3076.36  	103.413
3089.29  	103.53
3102.22  	103.392
3115.15  	103.621
3128.08  	103.662
3141.02  	103.658
3153.95  	103.576
3166.88  	103.545
3179.81  	103.363
3192.74  	103.411
3205.68  	103.286
3218.61  	103.117
3231.54  	102.915
3244.47  	102.632
3257.4  	102.428
3270.34  	102.2
3283.27  	101.939
3296.2  	101.635
3309.13  	101.406
3322.06  	101.144
3335  	100.644
3347.93  	100.422
3360.86  	100.077
3373.79  	99.9149
3386.72  	100.12
3399.65  	101.013
3412.59  	101.797
3425.52  	102.271
3438.45  	102.584
3451.38  	102.847
3464.31  	103.101
3477.25  	103.558
3490.18  	103.566
3503.11  	103.435
3516.04  	103.931
3528.97  	103.685
3541.91  	104.72
3554.84  	104.22
3567.77  	104.602
3580.7  	105.039
3593.63  	104.989
3606.57  	105.578
3619.5  	105.007
3632.43  	105.104
3645.36  	106.517
3658.29  	105.717
3671.22  	107.015
3684.16  	106.716
3697.09  	106.319
3710.02  	107.558
3722.95  	106.923
3735.88  	106.943
3748.82  	107.505
3761.75  	106.673
3774.68  	107.257
3787.61  	106.963
3800.54  	108.345
3813.48  	107.711
3826.41  	107.363
3839.34  	107.634
3852.27  	108.289
3865.2  	107.445
3878.14  	107.522
3891.07  	107.583
3904  	106.843
3916.93  	107.396
3929.86  	107.389
3942.79  	107.499
3955.73  	107.599
3968.66  	107.535
3981.59  	107.639
3994.52  	107.668
4000.27  	107.849

File: amostra_sem_unha.txt
x               y
399.452  	100.15
412.384  	100.691
425.316  	100.737
438.248  	97.9661
451.18  	100.538
464.112  	101.257
477.044  	99.9903
489.976  	100.503
502.908  	99.9274
515.839  	100.876
528.771  	100.294
541.703  	99.9534
554.635  	100.384
567.567  	100.034
580.499  	100.376
593.431  	100.315
606.363  	100.378
619.295  	100.334
632.227  	100.402
645.159  	100.356
658.09  	100.365
671.022  	100.417
683.954  	100.291
696.886  	100.391
709.818  	100.489
722.75  	100.555
735.682  	100.415
748.614  	100.381
761.546  	100.402
774.478  	100.408
787.409  	100.24
800.341  	100.373
813.273  	100.384
826.205  	100.381
839.137  	100.436
852.069  	100.404
865.001  	100.419
877.933  	100.449
890.865  	100.439
903.797  	100.467
916.729  	100.404
929.66  	100.383
942.592  	100.458
955.524  	100.448
968.456  	100.454
981.388  	100.442
994.32  	100.45
1007.25  	100.46
1020.18  	100.47
1033.12  	100.467
1046.05  	100.41
1058.98  	100.412
1071.91  	100.407
1084.84  	100.485
1097.78  	100.493
1110.71  	100.537
1123.64  	100.452
1136.57  	100.445
1149.5  	100.464
1162.43  	100.457
1175.37  	100.499
1188.3  	100.457
1201.23  	100.441
1214.16  	100.471
1227.09  	100.455
1240.03  	100.427
1252.96  	100.454
1265.89  	100.461
1278.82  	100.476
1291.75  	100.445
1304.69  	100.487
1317.62  	100.421
1330.55  	100.476
1343.48  	100.482
1356.41  	100.493
1369.35  	100.486
1382.28  	100.513
1395.21  	100.524
1408.14  	100.489
1421.07  	100.441
1434  	100.517
1446.94  	100.586
1459.87  	100.531
1472.8  	100.602
1485.73  	100.531
1498.66  	100.581
1511.6  	100.555
1524.53  	100.457
1537.46  	100.489
1550.39  	100.448
1563.32  	100.475
1576.26  	100.457
1589.19  	100.452
1602.12  	100.534
1615.05  	100.578
1627.98  	100.544
1640.92  	100.516
1653.85  	100.427
1666.78  	100.561
1679.71  	100.497
1692.64  	100.615
1705.57  	100.628
1718.51  	100.44
1731.44  	100.555
1744.37  	100.559
1757.3  	100.604
1770.23  	100.606
1783.17  	100.56
1796.1  	100.55
1809.03  	100.612
1821.96  	100.652
1834.89  	100.629
1847.83  	100.603
1860.76  	100.718
1873.69  	100.512
1886.62  	100.722
1899.55  	100.693
1912.49  	100.717
1925.42  	100.843
1938.35  	100.754
1951.28  	100.879
1964.21  	100.873
1977.15  	100.711
1990.08  	101.01
2003.01  	100.227
2015.94  	100.258
2028.87  	100.865
2041.8  	99.9581
2054.74  	100.191
2067.67  	100.321
2080.6  	100.679
2093.53  	100.899
2106.46  	100.677
2119.4  	100.716
2132.33  	101.071
2145.26  	101.138
2158.19  	101.029
2171.12  	100.475
2184.06  	100.162
2196.99  	100.652
2209.92  	100.563
2222.85  	100.577
2235.78  	100.259
2248.72  	100.369
2261.65  	100.41
2274.58  	100.39
2287.51  	100.502
2300.44  	100.618
2313.37  	100.633
2326.31  	100.753
2339.24  	100.643
2352.17  	100.649
2365.1  	100.301
2378.03  	100.398
2390.97  	100.583
2403.9  	100.678
2416.83  	100.747
2429.76  	100.707
2442.69  	100.58
2455.63  	100.643
2468.56  	100.718
2481.49  	100.731
2494.42  	100.659
2507.35  	100.792
2520.29  	100.722
2533.22  	100.715
2546.15  	100.613
2559.08  	100.671
2572.01  	100.633
2584.94  	100.599
2597.88  	100.579
2610.81  	100.578
2623.74  	100.568
2636.67  	100.605
2649.6  	100.626
2662.54  	100.66
2675.47  	100.718
2688.4  	100.748
2701.33  	100.767
2714.26  	100.761
2727.2  	100.781
2740.13  	100.778
2753.06  	100.765
2765.99  	100.804
2778.92  	100.802
2791.86  	100.797
2804.79  	100.815
2817.72  	100.789
2830.65  	100.805
2843.58  	100.836
2856.51  	100.791
2869.45  	100.83
2882.38  	100.833
2895.31  	100.838
2908.24  	100.813
2921.17  	100.813
2934.11  	100.798
2947.04  	100.771
2959.97  	100.84
2972.9  	100.859
2985.83  	100.907
2998.77  	100.879
3011.7  	100.854
3024.63  	100.851
3037.56  	100.868
3050.49  	100.917
3063.43  	100.88
3076.36  	100.847
3089.29  	100.87
3102.22  	100.894
3115.15  	100.914
3128.08  	100.878
3141.02  	100.895
3153.95  	100.903
3166.88  	100.91
3179.81  	100.951
3192.74  	100.942
3205.68  	100.875
3218.61  	100.884
3231.54  	100.927
3244.47  	100.917
3257.4  	100.887
3270.34  	100.888
3283.27  	100.995
3296.2  	100.961
3309.13  	100.896
3322.06  	100.905
3335  	100.84
3347.93  	100.924
3360.86  	100.969
3373.79  	101.005
3386.72  	100.948
3399.65  	100.932
3412.59  	100.953
3425.52  	100.962
3438.45  	100.915
3451.38  	101.031
3464.31  	101.018
3477.25  	100.937
3490.18  	100.882
3503.11  	100.894
3516.04  	101.027
3528.97  	100.935
3541.91  	100.977
3554.84  	100.952
3567.77  	101.008
3580.7  	100.923
3593.63  	100.968
3606.57  	101.134
3619.5  	101.009
3632.43  	100.809
3645.36  	101.136
3658.29  	101.203
3671.22  	101.65
3684.16  	101.083
3697.09  	100.965
3710.02  	101.287
3722.95  	101.122
3735.88  	101.058
3748.82  	101.07
3761.75  	100.923
3774.68  	101.034
3787.61  	101.096
3800.54  	101.112
3813.48  	101.025
3826.41  	101.029
3839.34  	101.353
3852.27  	101.167
3865.2  	100.974
3878.14  	101.024
3891.07  	101.13
3904  	100.66
3916.93  	100.949
3929.86  	100.951
3942.79  	101.038
3955.73  	101.044
3968.66  	101.003
3981.59  	101.055
3994.52  	101.043
4000.27  	101.066

File: amostra_unha_sem_gel.txt
x               y
399.452  	100.466
412.384  	100.589
425.316  	98.8584
438.248  	100.889
451.18  	100.775
464.112  	100.41
477.044  	100.815
489.976  	100.445
502.908  	99.9908
515.839  	100.275
528.771  	100.672
541.703  	100.385
554.635  	100.691
567.567  	100.423
580.499  	100.561
593.431  	100.474
606.363  	100.517
619.295  	100.397
632.227  	100.511
645.159  	100.402
658.09  	100.485
671.022  	100.387
683.954  	100.451
696.886  	100.53
709.818  	100.616
722.75  	100.524
735.682  	100.431
748.614  	100.508
761.546  	100.469
774.478  	100.435
787.409  	100.531
800.341  	100.611
813.273  	100.587
826.205  	100.577
839.137  	100.561
852.069  	100.488
865.001  	100.538
877.933  	100.57
890.865  	100.639
903.797  	100.529
916.729  	100.598
929.66  	100.618
942.592  	100.656
955.524  	100.595
968.456  	100.608
981.388  	100.611
994.32  	100.599
1007.25  	100.602
1020.18  	100.586
1033.12  	100.57
1046.05  	100.573
1058.98  	100.63
1071.91  	100.62
1084.84  	100.606
1097.78  	100.669
1110.71  	100.642
1123.64  	100.644
1136.57  	100.638
1149.5  	100.621
1162.43  	100.591
1175.37  	100.646
1188.3  	100.6
1201.23  	100.611
1214.16  	100.627
1227.09  	100.58
1240.03  	100.6
1252.96  	100.618
1265.89  	100.581
1278.82  	100.608
1291.75  	100.625
1304.69  	100.635
1317.62  	100.586
1330.55  	100.641
1343.48  	100.643
1356.41  	100.664
1369.35  	100.627
1382.28  	100.664
1395.21  	100.708
1408.14  	100.65
1421.07  	100.607
1434  	100.731
1446.94  	100.766
1459.87  	100.717
1472.8  	100.772
1485.73  	100.691
1498.66  	100.769
1511.6  	100.732
1524.53  	100.625
1537.46  	100.695
1550.39  	100.627
1563.32  	100.625
1576.26  	100.682
1589.19  	100.631
1602.12  	100.651
1615.05  	100.697
1627.98  	100.759
1640.92  	100.672
1653.85  	100.426
1666.78  	100.721
1679.71  	100.652
1692.64  	100.783
1705.57  	100.757
1718.51  	100.629
1731.44  	100.733
1744.37  	100.738
1757.3  	100.776
1770.23  	100.809
1783.17  	100.834
1796.1  	100.743
1809.03  	100.8
1821.96  	100.836
1834.89  	100.811
1847.83  	100.802
1860.76  	100.894
1873.69  	100.762
1886.62  	100.845
1899.55  	100.884
1912.49  	100.867
1925.42  	100.777
1938.35  	100.925
1951.28  	100.993
1964.21  	100.95
1977.15  	100.896
1990.08  	100.724
2003.01  	100.698
2015.94  	100.888
2028.87  	100.548
2041.8  	100.331
2054.74  	100.641
2067.67  	100.737
2080.6  	100.91
2093.53  	100.821
2106.46  	100.98
2119.4  	100.798
2132.33  	101.144
2145.26  	101.233
2158.19  	101.09
2171.12  	100.115
2184.06  	100.318
2196.99  	100.714
2209.92  	100.563
2222.85  	100.449
2235.78  	100.549
2248.72  	100.742
2261.65  	100.752
2274.58  	100.664
2287.51  	100.708
2300.44  	100.671
2313.37  	100.826
2326.31  	100.793
2339.24  	100.967
2352.17  	100.941
2365.1  	100.694
2378.03  	100.687
2390.97  	100.86
2403.9  	100.978
2416.83  	100.988
2429.76  	100.887
2442.69  	100.905
2455.63  	100.905
2468.56  	100.942
2481.49  	100.972
2494.42  	101.044
2507.35  	100.971
2520.29  	100.865
2533.22  	100.951
2546.15  	100.868
2559.08  	100.824
2572.01  	100.787
2584.94  	100.73
2597.88  	100.748
2610.81  	100.764
2623.74  	100.822
2636.67  	100.816
2649.6  	100.877
2662.54  	100.926
2675.47  	100.945
2688.4  	100.998
2701.33  	100.994
2714.26  	100.989
2727.2  	101.004
2740.13  	101.037
2753.06  	101.028
2765.99  	101.023
2778.92  	101.048
2791.86  	101.016
2804.79  	101.063
2817.72  	101.059
2830.65  	101.108
2843.58  	101.091
2856.51  	101.076
2869.45  	101.075
2882.38  	101.106
2895.31  	101.089
2908.24  	101.091
2921.17  	101.075
2934.11  	101.072
2947.04  	101.093
2959.97  	101.13
2972.9  	101.08
2985.83  	101.141
2998.77  	101.148
3011.7  	101.073
3024.63  	101.142
3037.56  	101.161
3050.49  	101.177
3063.43  	101.097
3076.36  	101.161
3089.29  	101.14
3102.22  	101.142
3115.15  	101.152
3128.08  	101.151
3141.02  	101.15
3153.95  	101.177
3166.88  	101.183
3179.81  	101.128
3192.74  	101.186
3205.68  	101.136
3218.61  	101.182
3231.54  	101.176
3244.47  	101.129
3257.4  	101.185
3270.34  	101.15
3283.27  	101.151
3296.2  	101.113
3309.13  	101.205
3322.06  	101.189
3335  	101.157
3347.93  	101.183
3360.86  	101.22
3373.79  	101.24
3386.72  	101.139
3399.65  	101.278
3412.59  	101.302
3425.52  	101.102
3438.45  	101.237
3451.38  	101.193
3464.31  	101.259
3477.25  	101.296
3490.18  	101.192
3503.11  	101.146
3516.04  	101.256
3528.97  	101.066
3541.91  	101.414
3554.84  	101.293
3567.77  	101.051
3580.7  	101.21
3593.63  	101.056
3606.57  	101.342
3619.5  	101.265
3632.43  	101.188
3645.36  	101.68
3658.29  	101.505
3671.22  	102.016
3684.16  	101.479
3697.09  	101.158
3710.02  	101.444
3722.95  	101.47
3735.88  	101.379
3748.82  	101.515
3761.75  	101.356
3774.68  	101.497
3787.61  	101.375
3800.54  	101.489
3813.48  	101.414
3826.41  	101.27
3839.34  	101.502
3852.27  	101.524
3865.2  	101.322
3878.14  	101.424
3891.07  	101.514
3904  	101.093
3916.93  	101.247
3929.86  	101.274
3942.79  	101.407
3955.73  	101.38
3968.66  	101.332
3981.59  	101.424
3994.52  	101.371
4000.27  	101.459

File: rGO1.txt
x               y
399.452  	81.5711
412.384  	81.0875
425.316  	82.1747
438.248  	83.0438
451.18  	81.8177
464.112  	78.4405
477.044  	80.5683
489.976  	83.5255
502.908  	83.2808
515.839  	81.4016
528.771  	79.8796
541.703  	80.2192
554.635  	81.0414
567.567  	81.9789
580.499  	82.4638
593.431  	83.1241
606.363  	84.2084
619.295  	85.4708
632.227  	85.6125
645.159  	84.3841
658.09  	83.9088
671.022  	86.333
683.954  	87.7064
696.886  	86.9786
709.818  	88.7912
722.75  	89.6601
735.682  	88.5445
748.614  	86.8726
761.546  	88.4666
774.478  	86.1774
787.409  	89.6979
800.341  	89.9006
813.273  	84.6771
826.205  	86.569
839.137  	88.3195
852.069  	90.0935
865.001  	89.4428
877.933  	88.39
890.865  	87.108
903.797  	83.9805
916.729  	82.6119
929.66  	79.9192
942.592  	78.0655
955.524  	79.7725
968.456  	80.7184
981.388  	80.1284
994.32  	78.098
1007.25  	71.2477
1020.18  	68.5836
1033.12  	71.4664
1046.05  	72.062
1058.98  	73.5367
1071.91  	74.2793
1084.84  	78.2912
1097.78  	79.8737
1110.71  	74.6799
1123.64  	69.704
1136.57  	62.5202
1149.5  	59.8026
1162.43  	56.2824
1175.37  	60.4823
1188.3  	68.809
1201.23  	74.626
1214.16  	75.1238
1227.09  	68.6738
1240.03  	66.157
1252.96  	70.0354
1265.89  	78.1439
1278.82  	80.3741
1291.75  	77.2649
1304.69  	78.5885
1317.62  	81.5932
1330.55  	86.7932
1343.48  	88.4274
1356.41  	87.9629
1369.35  	86.7605
1382.28  	88.2347
1395.21  	89.0345
1408.14  	90.1044
1421.07  	90.5172
1434  	88.4288
1446.94  	84.2746
1459.87  	83.4952
1472.8  	88.3349
1485.73  	92.7034
1498.66  	90.3466
1511.6  	79.9611
1524.53  	83.5239
1537.46  	85.6368
1550.39  	89.8897
1563.32  	94.2142
1576.26  	95.8742
1589.19  	96.1089
1602.12  	94.826
1615.05  	93.5392
1627.98  	91.3681
1640.92  	89.1982
1653.85  	91.1964
1666.78  	90.4208
1679.71  	85.9782
1692.64  	75.8532
1705.57  	62.6852
1718.51  	56.5894
1731.44  	64.502
1744.37  	83.9048
1757.3  	94.2786
1770.23  	97.6874
1783.17  	98.4724
1796.1  	98.9207
1809.03  	99.4934
1821.96  	99.6571
1834.89  	99.799
1847.83  	99.8698
1860.76  	99.8437
1873.69  	100.068
1886.62  	100.162
1899.55  	100.136
1912.49  	100.314
1925.42  	100.245
1938.35  	100.382
1951.28  	101.025
1964.21  	100.955
1977.15  	100.982
1990.08  	100.811
2003.01  	101.18
2015.94  	101.059
2028.87  	101.33
2041.8  	100.491
2054.74  	100.768
2067.67  	100.729
2080.6  	100.479
2093.53  	100.686
2106.46  	100.726
2119.4  	100.821
2132.33  	101.178
2145.26  	101.427
2158.19  	101.385
2171.12  	100.868
2184.06  	100.67
2196.99  	100.584
2209.92  	100.89
2222.85  	100.727
2235.78  	100.723
2248.72  	100.586
2261.65  	100.519
2274.58  	100.496
2287.51  	100.229
2300.44  	99.6802
2313.37  	98.9399
2326.31  	98.2228
2339.24  	98.67
2352.17  	98.8922
2365.1  	99.0166
2378.03  	99.0754
2390.97  	100.448
2403.9  	100.382
2416.83  	100.381
2429.76  	100.4
2442.69  	100.273
2455.63  	100.236
2468.56  	100.3
2481.49  	100.226
2494.42  	100.239
2507.35  	100.199
2520.29  	100.202
2533.22  	100.135
2546.15  	100.103
2559.08  	100.003
2572.01  	100.039
2584.94  	99.9594
2597.88  	99.9558
2610.81  	99.9414
2623.74  	99.9055
2636.67  	99.8965
2649.6  	99.8614
2662.54  	99.8949
2675.47  	99.9159
2688.4  	99.9017
2701.33  	99.8277
2714.26  	99.7769
2727.2  	99.7225
2740.13  	99.6975
2753.06  	99.6894
2765.99  	99.6583
2778.92  	99.6031
2791.86  	99.5208
2804.79  	99.3098
2817.72  	98.9793
2830.65  	98.3811
2843.58  	96.3375
2856.51  	92.7702
2869.45  	91.3535
2882.38  	92.6974
2895.31  	91.8529
2908.24  	90.0428
2921.17  	87.0585
2934.11  	84.4342
2947.04  	83.5638
2959.97  	86.3675
2972.9  	91.2804
2985.83  	94.985
2998.77  	97.0839
3011.7  	98.4406
3024.63  	98.8737
3037.56  	98.9356
3050.49  	99.0179
3063.43  	98.9768
3076.36  	99.0455
3089.29  	99.1835
3102.22  	99.1358
3115.15  	99.1793
3128.08  	99.1871
3141.02  	99.1195
3153.95  	98.9916
3166.88  	98.9435
3179.81  	98.7913
3192.74  	98.7006
3205.68  	98.5346
3218.61  	98.4079
3231.54  	98.3097
3244.47  	98.0187
3257.4  	97.7697
3270.34  	97.5778
3283.27  	97.2289
3296.2  	97.0294
3309.13  	96.7196
3322.06  	96.4316
3335  	96.0204
3347.93  	95.8144
3360.86  	95.5443
3373.79  	95.4675
3386.72  	95.8597
3399.65  	96.598
3412.59  	97.2213
3425.52  	97.5431
3438.45  	97.7949
3451.38  	98.0715
3464.31  	98.3905
3477.25  	98.6287
3490.18  	98.8462
3503.11  	98.8021
3516.04  	99.2409
3528.97  	99.0823
3541.91  	99.5491
3554.84  	99.1787
3567.77  	98.7958
3580.7  	99.7518
3593.63  	99.8565
3606.57  	99.8938
3619.5  	98.279
3632.43  	98.7923
3645.36  	99.4868
3658.29  	98.4844
3671.22  	98.8196
3684.16  	98.4718
3697.09  	98.5691
3710.02  	101.264
3722.95  	100.883
3735.88  	100.887
3748.82  	101.092
3761.75  	100.286
3774.68  	100.795
3787.61  	100.703
3800.54  	102.381
3813.48  	101.561
3826.41  	101.713
3839.34  	101.058
3852.27  	102.684
3865.2  	101.239
3878.14  	101.095
3891.07  	101.789
3904  	101.106
3916.93  	101.266
3929.86  	101.2
3942.79  	101.082
3955.73  	101.072
3968.66  	101.135
3981.59  	101.095
3994.52  	101.138
4000.27  	101.192